Folder: MCOR/mosesI_throughput

Note: README.md
# MCOR
Software for identifying extra spectral content in the MOSES I Data

Since I did a shitty job of documenting my work I get to do it retroactively.  My goal is to identify the final versions of various pieces of code, and the order they were run in.  Hopefully I can also delete old unused versions of the code so this package is useful to the MOSES team in the future.

#Forming Time Averaged Difference Images
The IDL routine 'moses_super_exporsure.pro' requires mosesAlignFinal.sav (a coaligned and reduced version of the MOSESI dataset).  Script output is moses_super.sav which contains super_zero, super_minus, and super_plus (a single image in each order with no saturated pixels.  More documentation within.

Plots of these super exposures are generated through 'moses_super_plot.pro'.  This saves the plus, zero, and plus-zero images with a uniform image scaling and draws some green boxes around interesting areas.

#Cross Correlation
... this part is extra bad.  mcor.sav is the cross-correlation function that I used for all forward modeling.  As far as I can tell sigtest_plot.pro will tell me everything I need to know if I can just parse through it.

File: Al2O3_one_filt_both_sides.dat
 al2o3 Density=2.6989 Thickness=1.20000E-02 microns
 Wavelength (nm), Transmission
    15.000      0.74273
    15.200      0.74353
    15.400      0.74419
    15.600      0.74496
    15.800      0.74557
    16.000      0.74601
    16.200      0.74630
    16.400      0.74645
    16.600      0.74645
    16.800      0.74632
    17.000      0.74606
    17.200      0.82380
    17.400      0.82082
    17.600      0.81781
    17.800      0.81478
    18.000      0.81171
    18.200      0.80862
    18.400      0.80552
    18.600      0.80242
    18.800      0.79929
    19.000      0.79616
    19.200      0.79300
    19.400      0.78983
    19.600      0.78663
    19.800      0.78329
    20.000      0.77994
    20.200      0.77658
    20.400      0.77321
    20.600      0.76982
    20.800      0.76642
    21.000      0.76299
    21.200      0.75953
    21.400      0.75607
    21.600      0.75260
    21.800      0.74911
    22.000      0.74563
    22.200      0.74213
    22.400      0.73862
    22.600      0.73511
    22.800      0.73160
    23.000      0.72807
    23.200      0.72453
    23.400      0.72098
    23.600      0.71741
    23.800      0.71383
    24.000      0.71025
    24.200      0.70667
    24.400      0.70307
    24.600      0.69948
    24.800      0.69588
    25.000      0.69228
    25.200      0.68867
    25.400      0.68528
    25.600      0.68225
    25.800      0.67931
    26.000      0.67657
    26.200      0.67385
    26.400      0.67118
    26.600      0.66851
    26.800      0.66585
    27.000      0.66319
    27.200      0.66053
    27.400      0.65788
    27.600      0.65524
    27.800      0.65260
    28.000      0.64996
    28.200      0.64733
    28.400      0.64470
    28.600      0.64208
    28.800      0.63946
    29.000      0.63684
    29.200      0.63424
    29.400      0.63163
    29.600      0.62903
    29.800      0.62644
    30.000      0.62385
    30.200      0.62126
    30.400      0.61870
    30.600      0.61614
    30.800      0.61359
    31.000      0.61104
    31.200      0.60850
    31.400      0.60597
    31.600      0.60344
    31.800      0.60091
    32.000      0.59839
    32.200      0.59588
    32.400      0.59337
    32.600      0.59087
    32.800      0.58837
    33.000      0.58588
    33.200      0.58339
    33.400      0.58091
    33.600      0.57843
    33.800      0.57597
    34.000      0.57375
    34.200      0.57154
    34.400      0.56957
    34.600      0.56828
    34.800      0.56700
    35.000      0.56572
    35.200      0.56445
    35.400      0.56319
    35.600      0.56193
    35.800      0.56067
    36.000      0.55942
    36.200      0.55817
    36.400      0.55693
    36.600      0.55569
    36.800      0.55446
    37.000      0.55323
    37.200      0.55201
    37.400      0.55079
    37.600      0.54958
    37.800      0.54837
    38.000      0.54718
    38.200      0.54600
    38.400      0.54482
    38.600      0.54365
    38.800      0.54248
    39.000      0.54132
    39.200      0.54016
    39.400      0.53901
    39.600      0.53786
    39.800      0.53672
    40.000      0.53557
    40.200      0.53444
    40.400      0.53330
    40.600      0.53218
    40.800      0.53105
    41.000      0.52993
    41.200      0.52881
    41.400      0.52770
    41.600      0.52659
    41.800      0.52549
    42.000      0.52439
    42.200      0.52329
    42.400      0.52220
    42.600      0.52111
    42.800      0.52002
    43.000      0.51894
    43.200      0.51786
    43.400      0.51678
    43.600      0.51571
    43.800      0.51464
    44.000      0.51358
    44.200      0.51252
    44.400      0.51146
    44.600      0.51041
    44.800      0.50936
    45.000      0.50832